CTI3
DESCRIPTOR	"Calibration Target chart information 3"
ORIGINATOR	"ColorHug Factory"
DEVICE_CLASS	"DISPLAY"
COLOR_REP	"RGB_XYZ"
TARGET_INSTRUMENT	"ColorHug"
INSTRUMENT_TYPE_SPECTRAL	"NO"
LUMINANCE_XYZ_CDM2	"46.920776 36.220551 41.141510"
NORMALIZED_TO_Y_100	"YES"
NUMBER_OF_FIELDS	7
NUMBER_OF_SETS	836
BEGIN_DATA_FORMAT
 SAMPLE_ID	RGB_R	RGB_G	RGB_B	XYZ_X	XYZ_Y	XYZ_Z
END_DATA_FORMAT
BEGIN_DATA
 1	100	100	100	111.25	99.375	111.875
 2	100	100	100	133.75	98.125	113.125
 3	100	100	100	133.75	98.125	113.125
 4	100	100	100	133.75	100	111.25
 5	33.33	32.622	30.968	11.875	8.125	8.125
 6	100	0	100	62.5	26.25	80
 7	100	100	0	130.625	80	46.25
 8	0	100	100	46.25	91.25	100
 9	0	100	0	43.75	71.875	33.125
 10	0	0	100	2.5	18.125	66.25
 11	100	0	0	79.375	8.125	12.5
 12	0	0	0	0	0	0.625
 13	0	52.455	100	11.875	34.375	74.375
 14	100	0	50.3	80.625	12.5	25.625
 15	100	54.739	100	95	45	86.875
 16	100	52.128	0	93.75	23.75	19.375
 17	0	0	46.181	0.625	3.125	10.625
 18	0	51.141	0	9.375	15.625	6.875
 19	0	100	51.348	44.375	75.625	46.25
 20	100	100	52.037	109.375	85	59.375
 21	49.216	0	0	16.25	1.875	3.125
 22	56.159	100	0	65	74.375	36.25
 23	49.226	100	100	61.25	92.5	102.5
 24	44.487	0	100	27.5	19.375	69.375
 25	100	44.498	52.029	88.125	23.75	31.875
 26	48.926	48.544	100	26.25	33.75	76.25
 27	51.368	100	47.25	61.875	76.25	47.5
 28	49.893	0	49.033	20.625	5	15
 29	53.109	51.372	0	28.125	17.5	10
 30	0	58.587	53.943	13.125	24.375	25
 31	100	28.065	100	47.5	30.625	81.25
 32	0	0	72.874	1.25	8.125	30
 33	0	26.758	100	3.75	22.5	69.375
 34	0	25.426	0	2.5	3.75	1.25
 35	72.508	0	100	38.125	21.875	73.75
 36	100	27.395	0	80	12.5	14.375
 37	74.47	100	100	88.125	93.75	106.25
 38	100	0	25.728	83.75	9.375	15.625
 39	73.862	0	0	81.25	4.375	6.25
 40	100	100	25.402	115	81.875	48.125
 41	0	75.751	100	60	54.375	84.375
 42	0	75.172	0	22.5	36.25	16.25
 43	0	100	25.864	43.75	72.5	36.25
 44	100	0	74.801	81.875	16.875	44.375
 45	0	100	75.421	45	81.875	66.875
 46	24.577	0	0	4.375	0.625	0.625
 47	26.321	100	0	43.75	71.875	33.125
 48	100	75.835	0	95.625	44.375	30
 49	100	100	77.061	131.25	90.625	81.25
 50	71.263	100	0	83.75	75	38.125
 51	0	0	15.614	0.625	0.625	1.25
 52	0	30.049	70.936	3.75	13.125	30
 53	100	77.691	100	108.75	66.25	98.125
 54	24.486	100	100	50.625	90.625	100
 55	100	62.784	31.909	87.5	33.75	28.75
 56	29.552	0	100	16.875	18.75	68.125
 57	32.98	70.921	100	28.75	49.375	82.5
 58	0	27.681	40.241	3.125	6.875	10
 59	67.901	71.021	100	54.375	53.125	86.25
 60	28.154	100	67.829	49.375	79.375	59.375
 61	71.637	100	70.001	83.125	83.75	65.625
 62	58.822	58.763	53.586	39.375	26.875	28.125
 63	33.466	30.48	0	16.875	5.625	3.125
 64	100	73.795	71.277	101.25	51.25	57.5
 65	68.394	29.692	0	36.25	8.125	6.875
 66	70.399	0	29.039	35	5	9.375
 67	28.078	0	26.956	5.625	1.25	4.375
 68	28.532	72.339	0	25	33.75	15.625
 69	100	30.941	26.496	83.75	14.375	18.125
 70	34.597	0	73.611	8.75	9.375	31.875
 71	71.573	0	72.408	36.875	11.875	36.25
 72	0	71.029	29.412	20	33.125	18.75
 73	68.386	75.008	0	55.625	39.375	21.25
 74	68.088	27.309	100	37.5	25.625	73.75
 75	100	26.457	73.749	61.875	20.625	45.625
 76	74.344	100	27.392	86.25	78.125	41.875
 77	27.558	100	28.197	50	74.375	36.25
 78	31.196	27.465	100	10.625	22.5	70
 79	0	75.521	72.824	23.75	44.375	46.875
 80	0	50.93	25.553	9.375	16.25	10
 81	32.06	33.584	64.033	11.25	13.125	26.25
 82	81.666	55.38	0	51.875	23.125	16.25
 83	68.257	32.751	58.286	37.5	14.375	25.625
 84	0	55.248	81.585	12.5	28.75	49.375
 85	73.781	52.099	100	50	38.125	80
 86	100	50.537	82.952	91.875	33.75	61.875
 87	23.55	0	50.439	4.375	4.375	13.75
 88	31.335	62.746	31.114	21.875	25.625	16.25
 89	100	18.31	49.418	81.25	13.75	26.25
 90	26.498	48.404	0	33.125	13.75	6.875
 91	47.91	100	85.744	60	85.625	80.625
 92	71.829	47.313	31.811	47.5	17.5	16.875
 93	31.304	64.132	69.316	23.125	33.125	40
 94	80.403	0	54.321	47.5	8.75	23.125
 95	18.455	50.036	100	13.125	33.125	74.375
 96	50.653	100	16.345	60	75	36.25
 97	80.121	100	52.261	94.375	80	55
 98	0	22.54	19.289	2.5	3.125	3.75
 99	100	75.273	46.886	106.875	47.5	40
 100	0	78.618	56.625	25.625	45	35
 101	51.137	80.627	100	45.625	63.125	88.125
 102	48.446	0	17.864	23.125	2.5	3.75
 103	100	50.023	21.211	90	23.125	21.25
 104	50.115	20.118	0	18.125	4.375	3.75
 105	58.099	72.426	33.158	44.375	36.25	23.75
 106	19.364	100	50.197	46.25	75.625	46.25
 107	50.683	19.177	100	20	21.875	71.25
 108	53.37	0	81.576	20.625	12.5	43.75
 109	47.768	76.245	0	36.875	38.125	18.75
 110	0	18.927	55.503	1.875	6.875	17.5
 111	0	13.277	0	1.25	1.25	0.625
 112	72.862	72.473	75.625	58.75	45.625	55
 113	100	13.904	0	80.625	9.375	12.5
 114	86.349	0	100	61.25	23.75	75
 115	100	41.941	100	80	36.875	83.125
 116	100	81.785	16.464	111.25	53.125	33.75
 117	0	44.063	52.596	8.125	15	20
 118	0	0	58.917	0.625	5.625	18.75
 119	59.25	24.551	29.789	25.625	6.875	9.375
 120	82.73	82.874	100	80.625	69.375	96.25
 121	80.039	0	12.618	49.375	5	8.125
 122	60.957	47.729	77.817	34.375	25	46.25
 123	100	0	38.618	80	10	20
 124	0	40.09	100	27.5	27.5	70.625
 125	0	15.283	82.322	2.5	12.5	41.25
 126	17.592	81.726	100	22.5	61.875	87.5
 127	100	14.13	100	83.125	27.5	79.375
 128	15.261	100	82.059	45.625	83.125	74.375
 129	47.77	79.418	60.389	41.25	48.125	40
 130	18.768	16.429	0	3.125	1.875	1.25
 131	55.634	100	65.763	65	80	60
 132	100	100	38.541	130	81.875	52.5
 133	17.421	0	83.497	4.375	11.875	41.875
 134	17.237	16.758	100	5	20	68.125
 135	0	15.067	30.039	0.625	2.5	5
 136	0	0	86.505	1.25	12.5	46.25
 137	75.736	72.799	50.02	61.875	41.25	34.375
 138	100	83.323	85.529	114.375	66.25	78.75
 139	100	100	64.894	130.625	87.5	68.125
 140	81.98	84.914	0	94.375	53.125	29.375
 141	0	63.757	15.49	15.625	25	12.5
 142	49.514	66.135	100	34.375	46.25	81.875
 143	100	0	61.862	80	13.75	33.125
 144	24.308	45.41	49.831	11.25	15.625	19.375
 145	15.963	0	17.047	2.5	0.625	1.875
 146	87.497	100	100	48.75	96.875	108.125
 147	52.099	25.003	75.752	20.625	14.375	38.125
 148	14.909	81.162	0	28.125	41.875	20
 149	0	34.792	14.626	4.375	6.875	4.375
 150	48.39	45.075	22.552	22.5	13.75	10
 151	83.545	65.965	100	70	50	88.125
 152	16.226	62.345	0	17.5	23.125	11.25
 153	63.222	0	14.914	26.875	3.75	5
 154	80.449	13.446	0	46.875	6.25	7.5
 155	83.917	41.562	0	58.75	15	12.5
 156	100	60.448	46.3	95	33.75	33.75
 157	15.584	0	34.795	1.875	1.875	6.25
 158	17.144	65.121	100	19.375	44.375	78.75
 159	83.602	55.334	62.667	64.375	29.375	37.5
 160	0	82.19	14.22	35.625	44.375	21.25
 161	25.132	74.856	50.616	26.875	39.375	30
 162	0	13.769	100	2.5	19.375	68.125
 163	87.181	0	0	54.375	6.25	8.75
 164	0	100	39.19	43.75	73.125	40.625
 165	78.047	65.914	19.865	61.875	31.25	20.625
 166	100	63.961	15.865	81.25	33.75	25.625
 167	100	45.955	36.032	89.375	22.5	23.75
 168	15.926	100	16.89	45.625	71.875	33.75
 169	41.459	100	0	54.375	71.875	34.375
 170	48.707	37.288	48.139	21.25	12.5	18.125
 171	83.381	100	13.285	97.5	78.75	41.25
 172	78.129	25.303	75.621	48.125	16.875	41.25
 173	12.396	0	0	1.875	0	0.625
 174	37.607	48.336	83.346	15.625	26.25	49.375
 175	35.588	15.356	0	18.125	10	1.875
 176	61.245	100	100	69.375	93.125	103.75
 177	100	67.29	87.195	99.375	48.75	71.875
 178	0	0	30.615	0	1.875	4.375
 179	35.187	81.789	83.323	35.625	56.25	62.5
 180	39.525	80.194	22.879	35.625	43.125	23.125
 181	50.634	34.593	0	20.625	8.75	5.625
 182	14.175	100	63.146	45	76.875	55.625
 183	83.493	17.728	34.574	51.875	8.75	14.375
 184	23.463	22.014	79.943	14.375	13.75	40
 185	18.066	31.847	0	5.625	5.625	3.125
 186	87.201	100	81.361	105.625	89.375	80.625
 187	0	100	87.95	50	84.375	81.25
 188	34.476	17.888	46.22	8.75	5.625	13.125
 189	18.277	0	67.39	6.875	6.875	25.625
 190	100	87.972	0	113.125	60	36.875
 191	82.925	34.85	100	57.5	30	77.5
 192	0	88.016	100	34.375	70.625	89.375
 193	36.104	85.655	100	40.625	68.125	88.75
 194	60.981	0	0	24.375	3.125	3.75
 195	51.466	61.826	78.106	32.5	34.375	50
 196	78.427	31.983	22.175	46.875	10.625	11.875
 197	66.017	44.321	0	43.75	14.375	10
 198	83.941	0	84.177	53.125	16.875	51.25
 199	20.158	46.612	23.269	15	13.75	8.75
 200	0	100	62.618	43.75	76.875	53.75
 201	33.832	0	13.933	10	1.25	2.5
 202	100	17.286	16.322	79.375	10.625	14.375
 203	0	42.204	83.926	9.375	21.25	48.125
 204	0	87.774	0	31.25	51.875	23.125
 205	64.988	0	59.017	28.75	8.125	23.75
 206	14.677	0	100	8.125	18.75	66.25
 207	88.934	82.673	35.021	88.125	52.5	36.25
 208	0	63.778	100	17.5	43.125	77.5
 209	83.429	17.674	100	24.375	25	75
 210	30.899	100	85.668	50	85	78.75
 211	83.68	0	41.016	51.25	7.5	16.875
 212	100	63.515	0	94.375	32.5	23.125
 213	85.074	69.987	0	76.25	35.625	21.875
 214	20.801	45.524	69.018	11.25	20	32.5
 215	21.382	82.482	73.017	30.625	53.125	51.875
 216	100	15.128	64.249	80.625	15.625	35.625
 217	36.522	0	58.427	9.375	5.625	20
 218	22.466	81.296	33.007	29.375	45	25.625
 219	62.531	87.152	0	58.75	53.75	26.875
 220	84.12	85.397	67.886	85	60.625	56.25
 221	18.87	27.336	45.389	5.625	6.875	13.125
 222	66.439	100	14.444	74.375	75.625	38.75
 223	41.636	22.147	19.003	13.125	4.375	4.375
 224	61.271	100	81.94	71.25	85.625	76.25
 225	86.013	100	0	102.5	78.75	40.625
 226	37.57	0	0	20.625	1.25	1.25
 227	100	16.132	84.102	80	21.25	56.875
 228	0	100	13.619	46.875	71.875	33.125
 229	38.905	100	56.471	52.5	78.125	51.25
 230	100	15.382	34.563	80.625	11.25	18.75
 231	36.656	14.908	100	10.625	20.625	68.75
 232	0	62.593	66.608	15	30	35.625
 233	66.347	12.528	100	33.125	21.875	71.25
 234	100	43.375	69.233	78.75	26.25	44.375
 235	100	56.36	61.236	93.75	31.875	41.875
 236	0	86.194	44.955	32.5	51.25	33.125
 237	64.527	87.262	100	61.875	73.125	93.125
 238	34.411	0	42.471	8.125	3.125	10
 239	80.23	59.707	85.12	60	38.125	61.875
 240	20.625	19.056	14.791	5	2.5	2.5
 241	15.341	34.221	100	7.5	25	69.375
 242	36.777	0	87.905	9.375	13.75	50
 243	34.598	56.247	100	20.625	37.5	76.875
 244	20.86	67.629	17.418	20.625	28.75	14.375
 245	44.958	60.843	18.054	26.25	23.75	14.375
 246	37.421	60.193	0	22.5	22.5	10.625
 247	84.011	33.849	42.612	45	14.375	20
 248	17.241	60.339	37.743	17.5	23.75	17.5
 249	50.65	17.261	53.278	16.25	8.125	18.125
 250	45.505	48.926	65.152	23.125	21.25	32.5
 251	44.567	84.081	39.649	41.875	50.625	30.625
 252	100	86.339	72.054	116.875	66.875	65
 253	68.14	61.135	0	46.875	25	15
 254	17.93	66.986	81.403	20	38.75	53.125
 255	39.242	60.215	48.926	23.75	25.625	23.75
 256	20.099	18.77	62.967	5	8.125	23.125
 257	34.553	100	14.582	49.375	73.125	35
 258	87.345	0	66.694	56.25	12.5	34.375
 259	0	43.714	39.842	7.5	13.125	13.125
 260	100	37.705	13.955	83.125	16.25	16.875
 261	31.265	86.993	0	38.125	50.625	24.375
 262	51.402	82.661	81.338	45.625	56.875	63.75
 263	100	100	12.984	103.125	80.625	45.625
 264	0	37.859	0	28.125	8.125	3.75
 265	62.092	58.215	100	40.625	40.625	80.625
 266	86.186	100	64.1	103.125	84.375	63.75
 267	100	35.251	85.898	86.25	28.125	60.625
 268	63.182	89.992	41.974	61.875	60	38.75
 269	13.504	100	0	45	72.5	32.5
 270	100	0	13.228	78.125	8.75	13.125
 271	63.881	40.826	100	36.25	30	74.375
 272	69.387	84.838	20.792	62.5	51.875	29.375
 273	0	70.279	45.136	20	33.75	25
 274	79.094	64.754	40.908	49.375	32.5	27.5
 275	62.385	54.099	17.396	37.5	20.625	13.125
 276	64.408	14.621	0	29.375	4.375	5
 277	70.028	15.606	44.651	34.375	8.125	16.25
 278	0	63.544	0	16.25	24.375	11.25
 279	83.475	47.274	20.502	58.75	18.75	15.625
 280	55.866	0	32.671	21.875	3.75	8.75
 281	58.007	0	100	23.75	20.625	70.625
 282	100	0	87.698	72.5	20.625	60
 283	0	13.792	67.215	1.875	8.125	25.625
 284	84.123	17.001	58.549	53.75	11.875	27.5
 285	59.579	32.873	15.966	28.125	8.125	8.125
 286	10.41	32.998	28.659	5	6.875	6.875
 287	17.231	40.031	85.65	8.75	21.875	50
 288	37.568	41.561	10.108	14.375	10.625	6.875
 289	0	69.015	85.092	18.75	41.875	57.5
 290	14.442	100	36.187	43.75	74.375	39.375
 291	100	40.549	0	85.625	17.5	16.875
 292	82.143	45.435	78.429	58.125	26.875	49.375
 293	52.674	0	67.3	19.375	8.75	28.75
 294	0	87.868	66.793	33.125	58.75	48.75
 295	86.53	100	40.524	103.75	80.625	48.75
 296	71.777	85.586	67.232	68.75	58.75	53.125
 297	43.216	100	31.671	56.25	75	38.75
 298	39.245	32.908	85.845	15	19.375	49.375
 299	0	45.662	67.543	9.375	18.75	31.25
 300	12.161	100	100	45	90	100.625
 301	67.049	0	85.516	31.875	15.625	49.375
 302	100	89.041	100	106.25	81.25	104.375
 303	20.246	60.698	56.526	17.5	26.875	27.5
 304	52.177	55.457	40.416	28.75	22.5	19.375
 305	72.617	87.018	83.932	70	65.625	72.5
 306	40.512	16.723	66.475	15	10	26.25
 307	68.507	49.232	50.605	41.25	20.625	25.625
 308	65.622	100	54.525	43.75	80	53.125
 309	54.115	37.24	66.394	24.375	16.25	31.25
 310	100	76.138	31.267	105	45.625	34.375
 311	54.728	65.623	0	36.25	28.125	15
 312	63.126	12.526	64.37	33.125	10	26.875
 313	72.827	18.08	23.704	37.5	6.875	9.375
 314	23.268	15.278	34.947	4.375	3.75	7.5
 315	87.648	68.954	59.645	74.375	40.625	41.875
 316	0	85.595	85.198	50.625	60	66.875
 317	35.798	84.371	69.21	38.125	54.375	50
 318	36.062	47.494	35.919	16.25	15.625	13.75
 319	86.083	36.277	59.152	42.5	18.125	31.25
 320	58.21	100	30.361	67.5	74.375	40.625
 321	46.745	14.614	32.317	15.625	3.75	8.125
 322	81.573	73.869	86.954	73.125	51.875	70
 323	85.991	49.387	48.206	64.375	23.125	26.875
 324	28.062	87.906	19.654	40	51.875	26.25
 325	68.992	17.993	85.124	35	16.875	50.625
 326	100	66.147	100	100	53.75	90.625
 327	33.358	64.806	84.517	25	38.125	56.25
 328	41.351	17.736	80.522	13.125	13.75	41.25
 329	100	100	88.719	31.875	93.75	93.75
 330	66.336	0	44.32	30.625	6.25	14.375
 331	64.85	67.09	12.293	46.25	30.625	17.5
 332	15.262	31.268	63.277	5.625	11.875	24.375
 333	15.008	43.663	37.3	8.125	12.5	12.5
 334	0	57.895	38.078	12.5	21.875	16.25
 335	66.599	58.458	67.871	43.75	30	40
 336	59.191	18.651	15.215	25	4.375	5.625
 337	66.781	31.14	84.629	34.375	20.625	51.25
 338	88.033	85.158	52.14	90.625	58.125	45
 339	36.882	100	100	56.875	91.25	101.25
 340	26.102	33.094	17.006	8.125	6.875	5
 341	56.309	36.861	35.862	25.625	11.875	12.5
 342	45.839	65.587	67.033	30.625	34.375	38.75
 343	83.709	81.172	16.406	68.75	48.125	28.75
 344	0	48.132	13.005	8.125	13.75	6.875
 345	87.176	50.021	100	67.5	38.75	81.875
 346	51.219	84.244	13.73	51.25	48.125	25
 347	60.606	71.415	48.406	45	37.5	30.625
 348	0	11.359	12.718	25	1.25	1.25
 349	86.429	49.705	33.145	63.125	21.25	20.625
 350	34.056	40.958	100	15	28.125	73.125
 351	100	30.557	59.628	72.5	18.75	33.75
 352	88.497	26.902	13.449	71.25	10.625	11.875
 353	14.167	51.98	88.218	34.375	28.75	55
 354	13.784	12.983	49.37	3.75	4.375	13.125
 355	15.018	88.441	48.062	25	54.375	36.25
 356	87.79	25.769	89.215	58.75	23.125	60.625
 357	0	33.206	55.865	5	10.625	19.375
 358	74.324	76.029	35.536	61.25	41.875	28.75
 359	65.863	57.223	42.324	41.25	24.375	22.5
 360	30.893	54.646	13.136	17.5	18.125	9.375
 361	0	34.36	28.321	4.375	7.5	7.5
 362	15.443	77.087	85.116	10.625	50.625	62.5
 363	63.381	68.947	68.521	46.25	38.75	43.75
 364	69.733	27.566	42.917	36.25	10	16.875
 365	32.754	100	42.76	49.375	75.625	42.5
 366	47.096	29.481	34.829	18.125	8.125	10
 367	8.5451	71.948	62.695	21.25	38.125	35.625
 368	0	86.048	29.3	30	50	26.875
 369	53.697	51.572	85.367	30	29.375	53.75
 370	17.608	56.69	12.515	13.75	19.375	9.375
 371	90.638	14.414	49.227	63.125	11.25	22.5
 372	63.248	63.64	89.55	44.375	40	66.25
 373	100	85.976	58.455	114.375	61.875	54.375
 374	9.8311	28.027	7.5567	4.375	4.375	2.5
 375	89.831	64.313	69.506	76.875	38.75	48.75
 376	31.754	12.995	25.543	6.875	3.125	4.375
 377	75.914	45.966	64.957	30	22.5	35
 378	7.5735	50.695	58.941	15	20	25.625
 379	100	69.835	58.912	100.625	43.125	45.625
 380	32.211	34.376	48.339	11.25	10	16.25
 381	13.901	12.159	73.555	3.125	9.375	31.875
 382	87.071	9.028	77.653	56.875	16.25	45
 383	23.272	85.409	84.29	34.375	60.625	65
 384	93.289	39.48	26.145	70.625	16.25	17.5
 385	65.769	59.63	30.967	48.125	25.625	18.75
 386	100	32.265	41.803	83.75	16.25	23.75
 387	86.568	85.281	86.961	88.75	66.25	76.875
 388	52.577	86.83	30.016	52.5	53.125	30
 389	47.921	40.199	76.902	21.875	20	41.25
 390	22.36	86.619	61.58	33.75	55.625	44.375
 391	52.232	33.601	88.787	23.125	21.875	54.375
 392	0	28.523	86.267	4.375	16.875	48.125
 393	43.497	67.879	39.551	16.875	31.875	23.125
 394	39.877	45.261	0	17.5	12.5	6.875
 395	86.94	12.43	24.699	56.875	7.5	11.875
 396	28.363	55.339	90.398	22.5	32.5	60
 397	39.018	70.534	57.879	29.375	36.25	33.125
 398	12.833	28.519	78.828	5	14.375	38.75
 399	68.35	31.815	69.975	35.625	16.25	36.25
 400	56.52	26.226	41.626	26.875	8.125	14.375
 401	12.938	46.218	0	11.25	11.875	5.625
 402	8.6938	60.179	26.117	13.75	22.5	13.75
 403	51.995	89.429	96.608	51.25	71.875	89.375
 404	46.905	47.746	48.909	23.125	17.5	20.625
 405	14.352	81.814	19.479	28.75	43.75	21.875
 406	71.482	38.117	12.273	40.625	11.875	10.625
 407	86.616	60.785	10.012	63.75	27.5	19.375
 408	71.811	88.979	52.186	70.625	61.25	43.75
 409	43.213	100	72.083	56.875	80.625	63.75
 410	73.92	23.444	8.2853	40	6.875	8.125
 411	40.629	85.534	53.423	40.625	54.375	38.125
 412	38.955	52.128	22.885	22.5	17.5	11.25
 413	46.48	12.229	8.6707	15	2.5	3.125
 414	40.855	33.301	22.309	14.375	7.5	7.5
 415	76.365	66.787	61.06	55	36.875	38.75
 416	7.5076	12.025	20.59	1.25	1.875	2.5
 417	85.93	27.031	0	56.25	9.375	10.625
 418	100	87.757	44.06	116.875	63.125	45.625
 419	41.543	25.624	54.896	17.5	9.375	18.75
 420	59.533	76.669	91.789	46.875	53.75	75.625
 421	58.226	12.079	28.862	23.75	4.375	8.125
 422	50.514	8.8602	88.281	18.125	15.625	51.875
 423	41.983	0	31.301	11.25	2.5	6.25
 424	28.024	36.455	77.877	10	17.5	40
 425	12.718	41.027	11.129	6.875	10	5
 426	26.194	75.573	88.088	20	49.375	65
 427	28.936	71.474	37.671	25	34.375	22.5
 428	90.497	74.77	26.512	86.25	41.875	29.375
 429	17.514	75.984	41.507	25	38.75	25.625
 430	16.621	64.069	68.891	18.75	32.5	37.5
 431	12.42	21.661	36.669	4.375	5	8.125
 432	52.915	46.814	10.465	26.25	14.375	9.375
 433	56.979	91.194	52.49	53.75	62.5	43.125
 434	25.14	52.299	42.419	14.375	18.75	16.875
 435	25.587	6.8296	13.004	4.375	1.25	1.875
 436	55.018	14.818	41.328	20.625	5.625	12.5
 437	93.397	56.942	87.959	48.75	38.75	68.125
 438	28.374	12.057	85.683	7.5	13.75	45.625
 439	78.265	6.7088	92.468	44.375	20	61.25
 440	39.694	71.314	6.3658	37.5	32.5	15.625
 441	73.259	45.059	87.294	45	28.125	58.75
 442	26.381	57.692	76.454	18.75	29.375	43.125
 443	66.587	33.629	31.299	33.75	10	12.5
 444	88.523	74.434	46.718	80.625	44.375	36.25
 445	76.836	59.92	49.912	57.5	28.75	29.375
 446	33.152	90.418	31.148	41.25	57.5	30.625
 447	55.924	53.388	68.505	31.875	25.625	37.5
 448	77.248	91.798	41.448	76.25	63.75	41.875
 449	26.737	89.225	45.445	38.125	56.25	35.625
 450	87.642	100	25.942	103.125	78.125	45
 451	68.631	100	40.532	78.75	76.25	46.25
 452	14.485	50.449	49.078	11.875	18.125	19.375
 453	10.654	10.664	89.702	6.875	15	50.625
 454	31.962	49.108	62.92	15	20.625	28.75
 455	8.6779	22.468	68.278	10.625	10	27.5
 456	74.727	90.586	6.3447	75.625	58.75	31.25
 457	0	12.136	44.106	1.25	3.75	10
 458	43.35	78.123	73.61	33.125	48.75	51.25
 459	10.925	11.786	9.5801	1.875	1.25	1.25
 460	15.591	37.386	50.832	6.875	11.25	17.5
 461	10.685	68.959	9.3113	18.75	29.375	13.75
 462	92.017	72.247	12.692	79.375	39.375	26.25
 463	89.839	77.431	73.4	86.25	53.75	58.75
 464	47.45	74.511	18.753	36.875	36.875	20
 465	50.097	90.816	69.461	51.25	65	54.375
 466	82.755	34.052	82.994	55	23.125	52.5
 467	46.786	72.919	85.794	37.5	46.25	62.5
 468	9.3304	90.457	73.518	35.625	64.375	56.25
 469	88.59	61.902	22.128	72.5	29.375	21.875
 470	100	61.262	74.222	96.25	40	53.75
 471	86.777	8.8992	8.4672	58.125	6.25	9.375
 472	39.582	85.966	11.798	39.375	50.625	24.375
 473	85.958	0	24.986	54.375	6.25	11.25
 474	80.299	22.552	47.163	50	10.625	20
 475	7.218	45.128	76.547	11.25	20.625	40
 476	55.989	48.521	58.428	29.375	20	27.5
 477	50.728	10.774	73.284	18.125	10.625	33.75
 478	71.269	10.344	11.008	35	4.375	6.875
 479	91.768	45.194	10.385	71.25	18.125	16.25
 480	7.8976	42.553	25.13	7.5	11.25	7.5
 481	54.269	55.846	25.175	30.625	21.25	14.375
 482	41.937	24.646	5.4249	13.125	4.375	3.75
 483	89.502	33.423	70.991	63.75	20	41.25
 484	75.301	54.745	14.159	50.625	21.875	15.625
 485	76.653	6.2202	65.75	41.875	11.25	30.625
 486	58.072	77.769	7.4688	46.875	40	21.875
 487	27.429	73.801	76.267	26.875	44.375	50
 488	39.961	56.279	74.128	22.5	28.125	41.875
 489	23.43	28.561	70.622	7.5	12.5	30.625
 490	91.285	49.258	68.377	71.875	28.125	41.875
 491	95.591	89.122	11.382	107.5	61.25	35.625
 492	28.451	92.151	76.841	41.875	66.875	61.25
 493	26.242	26.08	53.808	7.5	8.125	18.125
 494	15.957	92.746	24.983	36.875	60	30
 495	13.563	9.1545	61.533	13.125	6.875	20.625
 496	13.216	24.593	54.939	3.75	7.5	18.125
 497	91.885	89.769	79.537	84.375	71.25	71.875
 498	100	88.684	29.334	115.625	61.875	41.25
 499	34.09	65.771	20.136	56.25	27.5	14.375
 500	20.961	77.373	9.9329	26.25	38.75	18.125
 501	48.985	66.059	50.556	31.25	31.875	28.125
 502	92.409	9.0241	90.897	65.625	21.25	61.875
 503	40.34	11.09	52.408	11.25	5.625	16.25
 504	41.367	58.198	88.277	21.25	34.375	60
 505	72.147	77.604	91.982	44.375	55.625	77.5
 506	12.761	67.714	50.147	18.75	31.875	25.625
 507	76.617	25.882	91.445	33.75	22.5	61.25
 508	92.734	34.742	50.285	69.375	17.5	26.25
 509	16.114	24.64	92.845	5.625	18.75	55.625
 510	22.589	72.255	61.762	20.625	38.75	36.25
 511	79.742	58.911	30.09	59.375	26.25	20.625
 512	75	100	87.265	86.25	89.375	85
 513	22.068	58.052	24.509	18.125	20.625	12.5
 514	29.302	20.341	8.3315	9.375	3.125	2.5
 515	75.009	40.707	41.951	43.75	15.625	19.375
 516	76.599	13.357	74.764	43.75	13.75	39.375
 517	10.272	88.11	94.612	36.25	68.125	81.25
 518	34.093	23.728	89.777	12.5	17.5	52.5
 519	29.867	13.694	72.95	7.5	10	31.25
 520	64.983	91.01	77.614	63.75	68.75	65
 521	66.135	26.77	20.928	31.875	8.125	8.125
 522	36.207	25.309	75.344	11.25	13.125	36.25
 523	78.931	73.018	10.687	65.625	37.5	23.125
 524	30.391	22.415	20.277	7.5	3.75	4.375
 525	11.242	82.956	64.472	28.125	51.25	43.75
 526	80.459	87.628	28.607	77.5	56.25	35
 527	27.707	31.87	88.315	14.375	19.375	51.25
 528	62.06	36.458	46.606	30.625	13.125	18.125
 529	29.542	11.104	53.546	6.25	5.625	16.25
 530	68.762	19.114	33.778	33.125	6.875	11.875
 531	59.637	48.524	31.174	31.875	17.5	14.375
 532	48.298	33.52	100	20.625	26.25	71.875
 533	45.598	28.163	66.475	16.875	12.5	28.75
 534	29.918	44.928	90.506	13.75	26.25	58.125
 535	78.316	92.636	77.206	73.75	73.75	68.125
 536	91.281	57.367	55.776	75.625	30	35.625
 537	21.692	25.08	26.495	6.25	4.375	5.625
 538	74.304	63.813	94.636	54.375	44.375	74.375
 539	88.481	29.745	32.468	60	12.5	16.25
 540	59.486	41.236	87.042	32.5	25	54.375
 541	92.045	78.449	60.137	91.25	51.875	46.875
 542	61.977	24.673	6.6648	27.5	6.25	5.625
 543	40.162	92.786	90.522	46.875	73.75	80
 544	36.748	77.066	93.097	35	54.375	73.125
 545	20.161	69.446	29.15	21.25	30.625	18.125
 546	47.187	88.771	0	46.875	53.125	26.25
 547	44.188	43.219	90.474	20.625	25.625	58.125
 548	8.9634	92.695	8.7975	33.125	58.75	26.875
 549	32.387	45.286	72.51	15.625	20	36.875
 550	48.879	44.876	39.601	18.125	15	15.625
 551	61.287	11.463	77.817	26.25	13.125	40.625
 552	25.396	43.768	11.365	11.25	11.25	6.25
 553	76.983	53.137	73.131	51.875	29.375	45
 554	43.083	65.437	28.359	27.5	28.125	17.5
 555	11.708	51.209	32.796	10.625	16.25	12.5
 556	71.238	41.136	23.296	40.625	13.75	12.5
 557	21.758	7.4731	22.877	3.75	1.25	3.75
 558	23.721	37.471	27.997	8.125	9.375	8.125
 559	10.847	0	52.434	1.25	4.375	14.375
 560	52.184	32.794	25.185	18.75	8.75	8.125
 561	25.164	57.264	2.5113	16.25	20	9.375
 562	25.531	62.973	45.088	18.75	26.875	21.875
 563	59.406	92.015	9.9812	32.5	60.625	30
 564	9.0031	43.883	94.414	9.375	26.875	61.875
 565	29.38	24.618	40.51	8.125	6.25	10.625
 566	56.497	10.252	5.6832	15	3.125	3.75
 567	70.521	20.255	56.201	35.625	10	23.75
 568	81.365	40.212	31.436	51.25	15.625	16.25
 569	56.55	19.28	86.012	23.75	16.875	50
 570	25.096	37.115	57.433	11.25	12.5	21.875
 571	87.229	43.818	88.57	65	30	61.25
 572	9.0945	89.498	36.178	33.75	55.625	30.625
 573	60.107	91.337	22.013	50	59.375	31.875
 574	43.216	91.406	24.486	46.25	59.375	30.625
 575	55.315	58.321	10.243	32.5	21.875	13.125
 576	63.269	92.59	62.685	63.75	66.875	52.5
 577	20.915	89.348	8.0709	48.125	53.75	25
 578	33.841	42.636	23.687	13.75	11.875	8.125
 579	82.32	36.054	11.955	52.5	12.5	11.25
 580	78.197	45.345	53.373	51.25	20	27.5
 581	87.492	64.105	49.348	74.375	33.75	32.5
 582	80.208	74.738	68.707	68.75	47.5	50.625
 583	12.847	33.194	39.194	6.25	8.125	10.625
 584	15.215	55.484	78.368	13.125	28.125	44.375
 585	25.437	6.1049	39.533	4.375	3.125	8.125
 586	57.87	49.584	46.944	31.25	19.375	21.25
 587	67.62	65.849	53.975	48.125	33.75	31.875
 588	26.643	41.991	38.871	10.625	12.5	13.125
 589	42.8	8.7865	22.456	11.875	2.5	5
 590	57.049	35.385	77.322	26.25	18.75	42.5
 591	36.112	43.832	54.787	15	16.25	21.875
 592	62.719	62.395	77.348	41.25	35.625	50
 593	60.706	81.416	54.884	50.625	50	39.375
 594	90.695	4.9508	56.719	62.5	11.875	26.25
 595	43.936	24.373	43.898	23.75	7.5	13.125
 596	4.3825	24.21	30.612	2.5	4.375	6.25
 597	53.911	79.942	42.742	44.375	45.625	30.625
 598	90.172	22.149	68.288	63.75	15.625	36.875
 599	77.586	29.345	63	45	15	30.625
 600	60.572	25.668	63.187	27.5	11.875	27.5
 601	97.729	10.927	74.359	73.75	16.875	44.375
 602	57.769	8.0576	53.146	23.125	6.875	18.75
 603	77.517	92.691	61.488	79.375	69.375	54.375
 604	44.198	38.831	60.002	30.625	15	25.625
 605	65.034	81.736	33.44	55.625	46.875	30
 606	67.829	69.791	24.123	50	33.75	21.25
 607	25.001	99.668	13.437	46.875	70.625	33.125
 608	89.683	25.837	56.548	63.125	14.375	28.125
 609	41.656	51.246	11.867	20.625	16.25	9.375
 610	23.72	38.131	96.84	10.625	25	65.625
 611	78.049	6.5915	25.803	43.75	5.625	10
 612	46.116	56.291	55.29	28.125	23.75	26.875
 613	92.023	9.1483	37.844	64.375	9.375	16.875
 614	91.068	89.904	23.497	90.625	61.25	37.5
 615	76.477	27.045	32.402	55	9.375	13.125
 616	42.661	5.2197	80.136	12.5	11.875	40.625
 617	6.2584	65.435	77.208	17.5	35	46.875
 618	89.71	95.846	52.578	103.125	75	52.5
 619	88.397	77.149	94.397	83.75	60	84.375
 620	78.888	91.034	93.609	81.25	76.875	90
 621	47.82	92.501	59	52.5	65.625	46.875
 622	23.826	47.444	80.539	12.5	23.75	45.625
 623	9.0413	12.29	37.978	1.25	3.125	7.5
 624	23.331	16.308	46.267	4.375	5	12.5
 625	35.756	10.704	35.9	8.125	3.75	8.125
 626	2.9969	77.21	88.879	24.375	51.25	66.25
 627	28.436	75.743	23.117	26.875	38.125	19.375
 628	9.0221	78.989	30.58	25.625	41.25	22.5
 629	8.803	17.371	0.30943	1.875	1.875	1.25
 630	60.16	36.719	3.7856	21.875	9.375	7.5
 631	7.0698	90.899	57.373	35	61.25	42.5
 632	79.721	9.527	45.163	45.625	8.125	18.125
 633	10.879	74.236	95.746	24.375	51.25	75.625
 634	64.217	22.086	74.373	30	14.375	37.5
 635	70.017	40.853	76.607	40	23.125	43.75
 636	4.7334	24.411	48.203	2.5	6.875	13.75
 637	50.973	26.358	13.005	18.75	6.25	5
 638	2.5724	55.065	90.994	12.5	32.5	60
 639	90.879	45.601	57.982	69.375	23.125	33.125
 640	68.145	79.947	44.862	58.125	46.25	33.75
 641	1.4829	67.595	54.158	18.125	31.875	28.125
 642	98.031	12.492	26.865	74.375	9.375	15.625
 643	76.47	93.209	18.886	78.125	64.375	35
 644	87.292	66.922	80.462	75.625	43.125	60
 645	10.233	96.829	47.233	40.625	67.5	41.25
 646	68.028	67.167	39.031	49.375	33.125	25
 647	45.312	94.998	9.2426	50.625	62.5	30.625
 648	77.97	53.709	40.015	52.5	23.75	22.5
 649	39.314	57.645	38.8	22.5	22.5	17.5
 650	57.297	82.865	67.439	48.75	54.375	49.375
 651	37.555	22.599	31.928	10.625	5	8.125
 652	92.35	23.597	40.911	66.875	11.875	20
 653	9.366	69.976	21.141	25	30	16.25
 654	51.187	19.14	23.012	18.125	5	6.25
 655	79.397	80.212	79.858	71.25	56.25	65
 656	95.392	55.226	12.927	81.875	25	20
 657	41.375	92.945	46.055	49.375	63.75	38.75
 658	45.146	82.618	89.901	41.25	60	73.75
 659	77.443	63.822	71.275	58.75	36.25	46.875
 660	53.973	31.254	55.289	23.75	11.25	21.25
 661	67.321	92.812	91.875	67.5	76.875	85
 662	39.436	37.141	40.709	31.25	10.625	13.75
 663	97.731	46.918	91.781	82.5	35	71.25
 664	40.993	6.1961	67.428	13.125	8.125	26.875
 665	79.123	80.606	57.718	44.375	51.875	44.375
 666	28.913	52.537	29.968	16.875	17.5	12.5
 667	14.658	37.254	73.035	6.875	15.625	35
 668	82.795	16.173	87.132	50	19.375	55
 669	8.3262	91.659	83.695	36.25	67.5	69.375
 670	45.527	77.031	49.285	36.875	42.5	31.25
 671	9.0854	40.031	62.08	7.5	14.375	25.625
 672	95.919	70.219	40.212	91.25	40	33.125
 673	42.67	92.336	77.786	47.5	68.125	64.375
 674	94.26	40.143	78.486	56.25	25.625	50.625
 675	65.647	53.082	89.436	45	32.5	63.125
 676	81.521	18.364	16.183	48.75	7.5	9.375
 677	8.4681	2.026	9.4857	1.25	0.625	0.625
 678	30.651	60.55	56.553	19.375	27.5	27.5
 679	53.483	73.043	73.646	39.375	43.125	50
 680	90.408	54.335	1.4985	71.25	23.75	17.5
 681	26.668	7.7075	63.496	5	7.5	22.5
 682	58.933	25.917	94.913	25.625	21.875	63.75
 683	9.8548	0.76371	72.617	1.875	8.125	30.625
 684	47.99	75.517	31.176	18.75	37.5	23.75
 685	48.087	9.0808	60.091	21.875	7.5	21.875
 686	10.988	21.876	19.614	3.75	3.125	3.75
 687	22.598	55.646	65.078	9.375	23.75	31.875
 688	9.0697	82.142	78.531	23.125	53.75	56.875
 689	90.301	42.459	39.12	66.875	18.75	21.875
 690	47.378	36.472	11.171	18.75	8.75	6.875
 691	49.382	1.8032	9.66	15.625	1.875	3.125
 692	1.9703	20.522	9.5307	1.875	2.5	1.875
 693	81.649	69.738	31.735	60	35.625	25.625
 694	34.53	73.626	67.13	29.375	41.25	41.25
 695	81.659	80.94	43.479	75	49.375	36.875
 696	10.291	63.628	90.197	17.5	38.125	62.5
 697	9.3825	51.554	18.669	10	16.25	8.75
 698	17.762	96.201	72.191	41.875	72.5	58.75
 699	67.56	52.693	6.6256	41.875	19.375	12.5
 700	45.853	7.7641	41.225	13.75	4.375	11.25
 701	10.95	73.197	73.054	22.5	41.875	45
 702	30.698	39.723	1.525	11.875	9.375	5
 703	81.002	52.333	91.825	56.25	35.625	68.125
 704	51.213	8.005	98.43	19.375	19.375	65.625
 705	5.4368	7.4372	80.307	1.875	10.625	38.75
 706	23.483	5.5586	76.358	4.375	10	35
 707	32.278	78.328	11.186	30	39.375	19.375
 708	4.5816	10.694	55.933	7.5	5.625	16.875
 709	89.829	62.524	36.614	75	31.25	26.25
 710	80.544	47.439	8.1742	54.375	17.5	13.125
 711	52.75	18.751	64.422	44.375	10	26.25
 712	62.358	2.6644	71.659	25.625	10.625	33.75
 713	64.674	45.928	67.561	36.25	21.875	35
 714	9.4766	33.184	90.141	5.625	20	53.75
 715	70.466	56.323	80.091	46.25	32.5	51.25
 716	57.237	71.111	99.776	41.875	51.25	85
 717	87.665	54.898	77.235	57.5	32.5	51.875
 718	16.33	71.595	0.85939	21.25	31.25	15
 719	35.3	79.117	32.908	32.5	41.25	25
 720	28.667	65.599	9.3944	21.25	26.25	13.125
 721	6.4435	54.089	70.225	11.875	24.375	35.625
 722	61.839	6.8281	38.81	25.625	5	11.875
 723	26.82	89.87	94.786	38.75	71.25	83.75
 724	5.7523	92.776	20.962	36.25	59.375	28.125
 725	75.073	63.309	7.8752	54.375	28.125	17.5
 726	61.102	20.846	50.693	26.875	8.75	18.75
 727	22.212	92.446	35.502	38.75	58.75	33.125
 728	92.086	35.29	8.3735	67.5	13.75	13.125
 729	6.1371	56.812	8.6847	12.5	18.75	9.375
 730	17.496	95.134	90.968	36.875	76.875	81.25
 731	97.652	22.856	91.04	77.5	25	64.375
 732	49.838	56.677	94.927	28.75	36.25	70
 733	52.347	66.189	89.979	32.5	41.875	65
 734	9.2025	61.07	60.052	15.625	27.5	30
 735	91.322	33.889	95.067	40	28.75	70.625
 736	35.535	50.421	47.701	17.5	18.75	19.375
 737	90.687	67.765	92.424	32.5	48.125	76.875
 738	23.14	27.979	7.2528	6.25	5	2.5
 739	74.571	37.346	94.34	45	26.875	67.5
 740	94.499	74.711	82.469	91.25	53.125	68.125
 741	43.662	60.242	6.7089	25.625	23.125	11.875
 742	94.229	53.959	43.646	80	26.25	27.5
 743	88.819	11.383	66.503	60	13.75	33.75
 744	32.047	21.909	62.334	8.75	8.75	23.125
 745	54.95	92.541	82.626	55	70.625	71.25
 746	71.956	56.212	58.905	48.125	26.875	32.5
 747	99.325	70.902	23.244	99.375	38.75	28.75
 748	90.147	23.875	23.537	63.125	10	13.75
 749	4.9251	37.67	45.258	16.875	11.25	14.375
 750	92.003	4.3641	46.508	64.375	9.375	21.25
 751	8.0287	68.481	36.597	18.125	30.625	20
 752	94.712	55.38	27.877	78.75	25.625	22.5
 753	59.036	41.793	22.693	52.5	12.5	10.625
 754	75.085	4.1457	81.543	40	15	46.25
 755	63.301	73.58	81.794	48.125	47.5	60
 756	87.889	97.159	72.707	101.25	80.625	69.375
 757	39.453	9.5152	91.318	13.125	16.25	54.375
 758	26.353	18.572	94.841	6.875	18.125	58.75
 759	19.325	8.4249	4.496	3.75	0.625	1.25
 760	14.945	80.063	53.214	26.875	45.625	33.75
 761	56.393	7.7606	18.733	23.75	3.125	5
 762	53.296	91.987	40.941	53.125	61.875	37.5
 763	91.714	5.4089	17.461	61.875	7.5	11.25
 764	35.214	69.883	47.511	27.5	34.375	26.25
 765	54.174	65.046	39.976	34.375	30	22.5
 766	0.48739	73.38	13.583	20.625	33.75	16.875
 767	45.038	24.464	90.44	16.25	18.125	55
 768	63.657	41.354	57.623	20	17.5	26.25
 769	60.349	99.318	73.525	65.625	81.25	66.875
 770	45.802	53.303	31.659	23.75	18.75	14.375
 771	66.01	80.362	74.383	55	53.75	55.625
 772	23.949	64.714	91.592	27.5	40.625	64.375
 773	74.347	9.4171	54.078	38.75	9.375	21.25
 774	92.529	91.743	63.785	96.25	68.75	58.75
 775	27.251	94.198	55.878	42.5	66.25	44.375
 776	35.57	11.733	10.395	8.75	1.875	2.5
 777	2.5649	51.038	46.451	9.375	18.125	18.125
 778	91.133	22.688	78.884	63.125	19.375	48.125
 779	9.3684	3.2632	25.712	1.25	1.25	3.75
 780	89.782	58.781	98.566	61.875	43.75	83.125
 781	91.178	92.619	40.078	101.875	66.875	45
 782	67.918	75.593	60.707	73.125	44.375	41.25
 783	21.214	7.6666	93.134	51.875	16.25	55.625
 784	16.312	15.496	27.702	2.5	3.125	4.375
 785	55.058	61.647	63.033	29.375	30.625	35.625
 786	64.827	43.743	39.237	35	15.625	16.875
 787	76.437	76.558	23.556	61.875	41.875	26.25
 788	23.505	31.715	37.321	6.875	8.125	10
 789	73.049	16.469	95.896	39.375	21.25	66.25
 790	86.35	91.415	7.6506	90.625	62.5	35
 791	75.383	18.628	65.782	42.5	12.5	31.25
 792	69.893	90.723	32.423	67.5	59.375	36.25
 793	48.41	50.555	75.728	27.5	25	42.5
 794	66.07	6.5086	22.487	29.375	4.375	7.5
 795	56.705	65.792	24.032	35.625	28.75	18.125
 796	76.562	34.662	51.314	45	14.375	23.125
 797	79.282	37.864	70.629	49.375	20	39.375
 798	61.86	83.501	85.092	53.125	60	68.75
 799	55.206	71.204	58.769	39.375	38.75	35.625
 800	41.161	67.679	77.016	28.75	38.125	49.375
 801	39.082	35.254	73.407	16.875	16.25	35.625
 802	54.232	98.131	91.703	60	83.75	88.125
 803	52.316	68.565	11.225	35.625	30.625	16.25
 804	13.126	31.651	17.948	5	5.625	4.375
 805	41.211	67.64	94.245	28.75	44.375	71.875
 806	6.2691	78.009	44.653	24.375	40.625	27.5
 807	18.472	48.506	58.249	10.625	18.75	24.375
 808	91.193	95.684	89.468	104.375	83.125	88.75
 809	90.576	89.753	96.277	99.375	76.875	93.75
 810	91.055	18.181	4.8873	63.75	8.125	10.625
 811	9.5158	57.466	44.934	30	22.5	18.75
 812	74.253	8.6243	35.462	37.5	6.25	12.5
 813	30.958	79.592	58.964	30.625	46.25	38.125
 814	64.297	44.2	12.447	34.375	13.75	10
 815	90.387	78.022	2.123	51.25	45	26.875
 816	38.276	57.67	62.47	22.5	26.25	31.875
 817	69.306	81.298	10.013	59.375	45.625	25
 818	11.786	56.194	98.458	21.25	35.625	71.875
 819	37.361	92.605	63.696	43.125	65	50.625
 820	99.099	26.774	11.31	78.75	11.875	14.375
 821	33.69	80.487	44.1	33.75	45	29.375
 822	58.378	47.696	96.771	31.875	31.875	70
 823	8.31	80.971	8.1118	27.5	42.5	20
 824	36.053	31.424	11.914	11.875	6.25	4.375
 825	23.96	74.365	97.709	26.875	51.25	80
 826	2.2643	18.895	91.763	3.125	16.25	53.125
 827	33.23	92.745	7.8538	30	58.75	28.125
 828	74.486	38.764	0.43818	43.125	12.5	9.375
 829	72.293	67.732	84.511	55	42.5	62.5
 830	71.349	55.278	23.75	48.125	21.875	15.625
 831	10.998	19.916	82.596	3.75	13.75	41.875
 832	1.5798	33.328	79.698	3.75	16.875	40.625
 833	61.955	8.9911	90.766	11.25	16.875	56.25
 834	44.195	40.277	31.491	26.25	13.125	10.625
 835	59.06	79.425	21.32	46.25	43.125	23.75
 836	9.8214	2.9467	42.842	1.25	2.5	10
END_DATA
